Folder: Battery-Anomaly

Note: config.json
{
    "model_type": "Battery Current & Temperature Anomaly Detection (API-Based)",
    "date_created": "2025-12-02 20:06:20",
    "total_samples": 21960,
    "devices": [
        "device2",
        "device3",
        "device3",
        "device4",
        "device5",
        "device6",
        "device7",
        "device8",
        "d2",
        "d3",
        "d4",
        "d5",
        "d6",
        "d7",
        "d8"
    ],
    "api_endpoints": [
        "https://le3tvo1cgc.execute-api.us-east-1.amazonaws.com/prod/get-data?table=device2",
        "https://le3tvo1cgc.execute-api.us-east-1.amazonaws.com/prod/get-data?table=device3",
        "https://le3tvo1cgc.execute-api.us-east-1.amazonaws.com/prod/get-data?table=device3",
        "https://le3tvo1cgc.execute-api.us-east-1.amazonaws.com/prod/get-data?table=device4",
        "https://le3tvo1cgc.execute-api.us-east-1.amazonaws.com/prod/get-data?table=device5",
        "https://le3tvo1cgc.execute-api.us-east-1.amazonaws.com/prod/get-data?table=device6",
        "https://le3tvo1cgc.execute-api.us-east-1.amazonaws.com/prod/get-data?table=device7",
        "https://le3tvo1cgc.execute-api.us-east-1.amazonaws.com/prod/get-data?table=device8",
        "https://le3tvo1cgc.execute-api.us-east-1.amazonaws.com/prod/get-data?table=d2",
        "https://le3tvo1cgc.execute-api.us-east-1.amazonaws.com/prod/get-data?table=d3",
        "https://le3tvo1cgc.execute-api.us-east-1.amazonaws.com/prod/get-data?table=d4",
        "https://le3tvo1cgc.execute-api.us-east-1.amazonaws.com/prod/get-data?table=d5",
        "https://le3tvo1cgc.execute-api.us-east-1.amazonaws.com/prod/get-data?table=d6",
        "https://le3tvo1cgc.execute-api.us-east-1.amazonaws.com/prod/get-data?table=d7",
        "https://le3tvo1cgc.execute-api.us-east-1.amazonaws.com/prod/get-data?table=d8"
    ],
    "recent_data_window_minutes": 20,
    "current_thresholds": {
        "lower_critical": -51.54489468654397,
        "lower_warning": 0.0,
        "upper_warning": 1.1162124999999992,
        "upper_critical": 52.97626059911228,
        "rate_threshold": 0.527,
        "mean": 0.715682956284153,
        "median": 0.1348,
        "std": 17.420192547609375,
        "Q1": 0.01105,
        "Q3": 0.37255,
        "IQR": 0.3615
    },
    "temperature_thresholds": {
        "lower_critical": 42.20654399772968,
        "lower_warning": 53.33,
        "upper_warning": 65.0,
        "upper_critical": 68.39715181283499,
        "rate_threshold": 12.780000000000001,
        "mean": 55.30184790528234,
        "median": 53.33,
        "std": 4.365101302517552,
        "Q1": 53.33,
        "Q3": 53.89,
        "IQR": 0.5600000000000023
    },
    "note": "Discharge current is set to 0. All negative currents converted to 0."
}

Note: device_verdicts (2).json
{
    "analysis_timestamp": "2025-12-04T10:39:10.275423",
    "analysis_window_minutes": 20,
    "devices": {
        "device2": {
            "verdict": "NO",
            "message": "NORMAL OPERATION",
            "samples": 34,
            "anomaly_count": 0,
            "anomaly_rate": 0.0,
            "critical_events": 0,
            "high_severity_events": 0,
            "latest_timestamp": "2025-11-11 19:01:44+05:30",
            "current_min": 0.0,
            "current_max": 0.8862,
            "current_mean": 0.18494117647058825,
            "temp_min": 53.33,
            "temp_max": 53.33,
            "temp_mean": 53.32999999999999
        },
        "device3": {
            "verdict": "YES",
            "message": "ANOMALY DETECTED",
            "samples": 68,
            "anomaly_count": 35,
            "anomaly_rate": 51.470588235294116,
            "critical_events": 0,
            "high_severity_events": 38,
            "latest_timestamp": "2025-11-05 18:04:02+05:30",
            "current_min": 0.5921,
            "current_max": 1.6977,
            "current_mean": 1.125529411764706,
            "temp_min": 53.33,
            "temp_max": 63.89,
            "temp_mean": 55.04647058823528
        },
        "device4": {
            "verdict": "YES",
            "message": "ANOMALY DETECTED",
            "samples": 13,
            "anomaly_count": 4,
            "anomaly_rate": 30.76923076923077,
            "critical_events": 0,
            "high_severity_events": 0,
            "latest_timestamp": "2025-11-19 18:13:04+05:30",
            "current_min": 0.0,
            "current_max": 0.3277,
            "current_mean": 0.04447692307692308,
            "temp_min": 49.44,
            "temp_max": 53.33,
            "temp_mean": 51.534615384615385
        },
        "device5": {
            "verdict": "YES",
            "message": "ANOMALY DETECTED",
            "samples": 7,
            "anomaly_count": 3,
            "anomaly_rate": 42.857142857142854,
            "critical_events": 0,
            "high_severity_events": 0,
            "latest_timestamp": "2025-09-26 17:37:42+05:30",
            "current_min": 0.12225,
            "current_max": 0.24125,
            "current_mean": 0.19367857142857142,
            "temp_min": 49.44,
            "temp_max": 53.33,
            "temp_mean": 51.662857142857135
        },
        "device6": {
            "verdict": "NO",
            "message": "NORMAL OPERATION",
            "samples": 20,
            "anomaly_count": 1,
            "anomaly_rate": 5.0,
            "critical_events": 0,
            "high_severity_events": 0,
            "latest_timestamp": "2025-11-11 17:42:25+05:30",
            "current_min": 0.0,
            "current_max": 0.039,
            "current_mean": 0.0021000000000000003,
            "temp_min": 53.33,
            "temp_max": 63.89,
            "temp_mean": 55.775
        },
        "device7": {
            "verdict": "YES",
            "message": "ANOMALY DETECT

Note: feature_names.json
[
  "current",
  "temperature",
  "current_diff",
  "current_diff_abs",
  "current_pct_change",
  "temp_diff",
  "temp_pct_change",
  "current_roll_mean",
  "current_roll_std",
  "current_roll_min",
  "current_roll_max",
  "current_deviation",
  "temp_roll_mean",
  "temp_roll_std",
  "current_abs",
  "current_rate",
  "current_volatility",
  "hour",
  "minute",
  "day_of_week",
  "is_weekend",
  "hour_sin",
  "hour_cos"
]

File: ZIPBATT5107240001 - record.csv
DataPoint,Cycle Index,Step Index,Step started to end the identification ,Step Type,Time,Total Time,Current(A),Voltage(V),Capacity(Ah),Spec. Cap.(mAh/g),Chg. Cap.(Ah),Chg. Spec. Cap.(mAh/g),DChg. Cap.(Ah),DChg. Spec. Cap.(mAh/g),Energy(Wh),Spec. Energy(mWh/g),Chg. Energy(Wh),Chg. Spec. Energy(mWh/g),DChg. Energy(Wh),DChg. Spec. Energy(mWh/g),Date,Power(W),dQ/dV(mAh/V),dQm/dV(mAh/V.g),Contact resistance(mÎ©),Module start-stop switch,SOC/DOD(%),LgD
1,1,1,0,CCCV Chg,00:00:00,00:00:00,50.0055,53.0008,0.0000,0.00,0.0000,0.00,0.0000,0.00,0.0000,0.00,0.0000,0.00,0.0000,0.00,2024-07-01 12:47:54,2650.33,0.0,0.0,0.00,Close,0.00,
17,1,1,,CCCV Chg,00:08:00,00:08:00,49.9991,54.1412,6.6666,6666621.16,6.6666,6666621.16,0.0000,0.00,360.2654,360265386.67,360.2654,360265386.67,0.0000,0.00,2024-07-01 12:55:54,2707.01,245095.3,245095320.3,0.00,Close,8.65,
33,1,1,,CCCV Chg,00:16:00,00:16:00,49.9985,54.1752,13.3332,13333239.47,13.3332,13333239.47,0.0000,0.00,721.3372,721337184.71,721.3372,721337184.71,0.0000,0.00,2024-07-01 13:03:54,2708.68,1388871.1,1388871111.1,0.00,Close,17.30,
49,1,1,,CCCV Chg,00:24:00,00:24:00,49.9997,54.1990,19.9999,19999866.31,19.9999,19999866.31,0.0000,0.00,1082.57,1082567429.69,1082.57,1082567429.69,0.0000,0.00,2024-07-01 13:11:54,2709.93,173608.9,173608888.9,0.00,Close,25.95,
65,1,1,,CCCV Chg,00:32:00,00:32:00,49.9967,54.2531,26.6665,26666498.84,26.6665,26666498.84,0.0000,0.00,1444.06,1444057907.20,1444.06,1444057907.20,0.0000,0.00,2024-07-01 13:19:54,2712.48,85033.2,85033215.4,0.00,Close,34.60,
81,1,1,,CCCV Chg,00:40:00,00:40:00,50.0001,54.3389,33.3331,33333125.69,33.3331,33333125.69,0.0000,0.00,1806,1805999581.87,1806,1805999581.87,0.0000,0.00,2024-07-01 13:27:54,2716.95,60385.9,60385906.6,0.00,Close,43.25,
97,1,1,,CCCV Chg,00:48:00,00:48:00,49.9986,54.4788,39.9997,39999749.69,39.9997,39999749.69,0.0000,0.00,2168.67,2168672893.16,2168.67,2168672893.16,0.0000,0.00,2024-07-01 13:35:54,2723.87,34434.7,34434703.4,0.00,Close,51.90,
113,1,1,,CCCV Chg,00:56:00,00:56:00,49.9973,54.6124,46.6663,46666336.71,46.6663,46666336.71,0.0000,0.00,2532.35,2532347812.98,2532.35,2532347812.98,0.0000,0.00,2024-07-01 13:43:54,2730.47,63130.3,63130289.6,0.00,Close,60.55,
129,1,1,,CCCV Chg,01:04:00,01:04:00,50.0009,54.6948,53.3329,53332912.36,53.3329,53332912.36,0.0000,0.00,2896.7,2896695751.11,2896.7,2896695751.11,0.0000,0.00,2024-07-01 13:51:54,2734.79,96899.0,96898976.7,0.00,Close,69.19,
145,1,1,,CCCV Chg,01:12:00,01:12:00,49.9992,54.7894,59.9995,59999505.07,59.9995,59999505.07,0.0000,0.00,3261.63,3261627323.73,3261.63,3261627323.73,0.0000,0.00,2024-07-01 13:59:54,2739.43,101624.4,101624368.6,0.00,Close,77.84,
161,1,1,,CCCV Chg,01:20:00,01:20:00,49.9984,54.9355,66.6661,66666097.78,66.6661,66666097.78,0.0000,0.00,3627.34,3627340413.16,3627.34,3627340413.16,0.0000,0.00,2024-07-01 14:07:54,2746.69,39307.0,39307002.1,0.00,Close,86.49,
177,1,1,,CCCV Chg,01:28:00,01:28:00,50.0001,55.2897,73.3327,73332696.18,73.3327,73332696.18,0.0000,0.00,3994.5,3994497115.02,3994.5,3994497115.02,0.0000,0.00,2024-07-01 14:15:54,2764.49,10064.0,10063974.2,0.00,Close,95.14,
193,1,2,,Rest,00:03:00,01:35:29,0.0000,54.0790,0.0000,0.00,0.0000,0.00,0.0000,0.00,0.0000,0.00,0.0000,0.00,0.0000,0.00,2024-07-01 14:23:23,0.0000,0.0,0.0,0.00,Close,0.00,
209,1,3,,CC DChg,00:00:30,01:42:59,-49.9960,52.5442,0.4167,416664.53,0.0000,0.00,0.4167,416664.53,21.9767,21976667.02,0.0000,0.00,21.9767,21976667.02,2024-07-01 14:30:53,-2627,-592.9,-592948.0,0.00,Close,0.41,
225,1,3,,CC DChg,00:08:30,01:50:59,-49.9978,52.2231,7.0780,7078035.91,0.0000,0.00,7.0780,7078035.91,370.0645,370064452.27,0.0000,0.00,370.0645,370064452.27,2024-07-01 14:52:28,-2611.04,-8122.2,-8122150.3,0.00,Close,6.97,
241,1,3,,CC DChg,00:16:30,01:58:59,-49.9959,52.1565,13.7447,13744688.36,0.0000,0.00,13.7447,13744688.36,717.8822,717882163.20,0.0000,0.00,717.8822,717882163.20,2024-07-01 15:00:28,-2607.61,-378785.6,-378785616.2,0.00,Close,13.54,
257,1,3,,CC DChg,00:24:30,02:06:59,-50.0011,52.1113,20.4113,20411346.49,0.0000,0.00,20.4113,20411346.49,1065.47,1065472455.11,0.0000,0.00,1065.47,1065472455.11,2024-07-01 15:08:28,-2605.62,-75757.1,-75757123.2,0.00,Close,20.11,
273,1,3,,CC DChg,00:32:30,02:14:59,-49.9983,52.0065,27.0780,27077990.40,0.0000,0.00,27.0780,27077990.40,1412.59,1412589249.42,0.0000,0.00,1412.59,1412589249.42,2024-07-01 15:16:28,-2600.24,-39682.2,-39682167.2,0.00,Close,26.68,
289,1,3,,CC DChg,00:40:30,02:22:59,-50.0031,51.7861,33.7446,33744645.69,0.0000,0.00,33.7446,33744645.69,1758.58,1758577550.22,0.0000,0.00,1758.58,1758577550.22,2024-07-01 15:24:28,-2589.46,-40453.5,-40453523.2,0.00,Close,33.25,
305,1,3,,CC DChg,00:48:30,02:30:59,-49.9978,51.6719,40.4113,40411298.13,0.0000,0.00,40.4113,40411298.13,2103.37,2103371366.40,0.0000,0.00,2103.37,2103371366.40,2024-07-01 15:32:28,-2583.48,-74405.6,-74405587.3,0.00,Close,39.82,
321,1,3,,CC DChg,00:56:30,02:38:59,-49.9904,51.5883,47.0779,47077947.73,0.0000,0.00,47.0779,47077947.73,2447.57,2447571535.64,0.0000,0.00,2447.57,2447571535.64,2024-07-01 15:40:28,-2578.92,-70622.3,-70622252.4,0.00,Close,46.39,
337,1,3,,CC DChg,01:04:30,02:46:59,-49.9915,51.4918,53.7446,53744594.49,0.0000,0.00,53.7446,53744594.49,2791.17,2791174781.16,0.0000,0.00,2791.17,2791174781.16,2024-07-01 15:48:28,-2574.15,-86805.3,-86805333.3,0.00,Close,52.96,
353,1,3,,CC DChg,01:12:30,02:54:59,-49.9956,51.3788,60.4112,60411244.09,0.0000,0.00,60.4112,60411244.09,3134.08,3134077519.64,0.0000,0.00,3134.08,3134077519.64,2024-07-01 15:56:28,-2568.72,-57869.4,-57869432.1,0.00,Close,59.53,
369,1,3,,CC DChg,01:20:30,03:02:59,-50.0004,51.2248,67.0779,67077922.13,0.0000,0.00,67.0779,67077922.13,3476.13,3476128108.09,0.0000,0.00,3476.13,3476128108.09,2024-07-01 16:04:28,-2561.26,-27593.4,-27593371.6,0.00,Close,66.10,
385,1,3,,CC DChg,01:28:30,03:10:59,-50.0014,50.9768,73.7446,73744634.31,0.0000,0.00,73.7446,73744634.31,3816.85,3816853777.07,0.0000,0.00,3816.85,3816853777.07,2024-07-01 16:12:28,-2548.91,-24654.8,-24654769.2,0.00,Close,72.67,
401,1,3,,CC DChg,01:36:30,03:18:59,-50.0024,50.6548,80.4113,80411295.29,0.0000,0.00,80.4113,80411295.29,4155.7,4155698198.76,0.0000,0.00,4155.7,4155698198.76,2024-07-01 16:20:28,-2532.86,-18115.9,-18115895.7,0.00,Close,79.24,
417,1,3,,CC DChg,01:44:30,03:26:59,-50.0046,50.1404,87.0779,87077944.89,0.0000,0.00,87.0779,87077944.89,4491.76,4491757704.53,0.0000,0.00,4491.76,4491757704.53,2024-07-01 16:28:28,-2507.25,-14619.8,-14619845.6,0.00,Close,85.80,
433,1,3,,CC DChg,01:52:30,03:34:59,-50.0001,49.7905,93.7446,93744594.49,0.0000,0.00,93.7446,93744594.49,4824.93,4824930349.51,0.0000,0.00,4824.93,4824930349.51,2024-07-01 16:36:28,-2489.53,-13020.8,-13020800.0,0.00,Close,92.37,
449,1,3,,CC DChg,02:00:30,03:42:59,-49.9998,46.4559,100.4113,100411255.47,0.0000,0.00,100.4113,100411255.47,5149.71,5149712930.13,0.0000,0.00,5149.71,5149712930.13,2024-07-01 16:44:28,-2322.79,-946.1,-946107.2,0.00,Close,98.94,
465,1,4,,Rest,00:06:00,03:50:16,0.0000,11.1625,0.0000,0.00,0.0000,0.00,0.0000,0.00,0.0000,0.00,0.0000,0.00,0.0000,0.00,2024-07-01 16:51:45,0.0000,0.0,0.0,0.00,Close,0.00,
481,1,5,,CCCV Chg,00:03:30,03:57:46,50.0030,50.8287,2.9166,2916642.84,2.9166,2916642.84,0.0000,0.00,144.2652,144265204.62,144.2652,144265204.62,0.0000,0.00,2024-07-01 16:59:15,2541.59,1351.5,1351490.5,0.00,Close,2.87,
497,1,5,,CCCV Chg,00:11:30,04:05:46,50.0015,52.5904,9.5833,9583259.02,9.5833,9583259.02,0.0000,0.00,491.8507,491850683.73,491.8507,491850683.73,0.0000,0.00,2024-07-01 17:07:15,2629.6,27412.0,27411976.6,0.00,Close,9.43,
513,1,5,,CCCV Chg,00:19:30,04:13:46,49.9967,52.9734,16.2499,16249867.38,16.2499,16249867.38,0.0000,0.00,843.5417,843541708.80,843.5417,843541708.80,0.0000,0.00,2024-07-01 17:15:15,2648.49,12327.3,12327342.5,0.00,Close,15.99,
529,1,5,,CCCV Chg,00:27:30,04:21:46,50.0021,53.5079,22.9165,22916484.27,22.9165,22916484.27,0.0000,0.00,1198.57,1198574614.76,1198.57,1198574614.76,0.0000,0.00,2024-07-01 17:23:15,2675.51,14076.5,14076492.5,0.00,Close,22.54,
545,1,5,,CCCV Chg,00:35:30,04:29:46,50.0037,53.8436,29.5831,29583101.16,29.5831,29583101.16,0.0000,0.00,1556.56,1556559007.29,1556.56,1556559007.29,0.0000,0.00,2024-07-01 17:31:15,2692.38,28934.9,28934913.6,0.00,Close,29.10,
561,1,5,,CCCV Chg,00:43:22,04:37:38,49.9993,54.1565,36.1386,36138606.93,36.1386,36138606.93,0.0000,0.00,1910.73,1910725745.78,1910.73,1910725745.78,0.0000,0.00,2024-06-16 09:33:07,2707.78,-166666.2,-166666240.0,0.00,Close,35.55,
577,1,5,,CCCV Chg,00:51:22,04:45:38,49.9996,54.1545,42.8052,42805236.62,42.8052,42805236.62,0.0000,0.00,2271.72,2271722245.69,2271.72,2271722245.69,0.0000,0.00,2024-06-16 09:41:07,2707.71,154321.6,154321646.1,0.00,Close,42.11,
593,1,5,,CCCV Chg,00:59:22,04:53:38,50.0011,54.1942,49.4718,49471846.40,49.4718,49471846.40,0.0000,0.00,2632.86,2632859283.91,2632.86,2632859283.91,0.0000,0.00,2024-06-16 09:49:07,2709.77,109647.3,109647345.0,0.00,Close,48.67,
609,1,5,,CCCV Chg,01:07:22,05:01:38,49.9998,54.2634,56.1385,56138473.24,56.1385,56138473.24,0.0000,0.00,2994.37,2994367146.67,2994.37,2994367146.67,0.0000,0.00,2024-06-16 09:57:07,2713.16,106835.9,106835874.6,0.00,Close,55.22,
625,1,5,,CCCV Chg,01:15:22,05:09:38,49.9982,54.3834,62.8051,62805094.40,62.8051,62805094.40,0.0000,0.00,3356.49,3356488863.29,3356.49,3356488863.29,0.0000,0.00,2024-06-16 10:05:07,2719.07,41666.6,41666560.0,0.00,Close,61.78,
641,1,5,,CCCV Chg,01:23:22,05:17:38,50.0008,54.5458,69.4717,69471687.11,69.4717,69471687.11,0.0000,0.00,3719.62,3719615101.16,3719.62,3719615101.16,0.0000,0.00,2024-06-16 10:13:07,2727.33,53418.7,53418666.7,0.00,Close,68.34,
657,1,5,,CCCV Chg,01:31:22,05:25:38,50.0005,54.6283,76.1383,76138268.44,76.1383,76138268.44,0.0000,0.00,4083.54,4083536145.07,4083.54,4083536145.07,0.0000,0.00,2024-06-16 10:21:07,2731.44,57867.9,57867851.9,0.00,Close,74.90,
673,1,5,,CCCV Chg,01:39:22,05:33:38,49.9957,54.7094,82.8048,82804844.09,82.8048,82804844.09,0.0000,0.00,4447.97,4447970554.31,4447.97,4447970554.31,0.0000,0.00,2024-06-16 10:29:07,2735.24,77159.2,77159242.8,0.00,Close,81.46,
689,1,5,,CCCV Chg,01:47:22,05:41:38,49.9990,54.8228,89.4714,89471419.73,89.4714,89471419.73,0.0000,0.00,4813.06,4813057046.76,4813.06,4813057046.76,0.0000,0.00,2024-06-16 10:37:07,2741.08,51440.2,51440197.5,0.00,Close,88.01,
705,1,5,,CCCV Chg,01:55:22,05:49:38,50.0008,55.0365,96.1380,96138001.07,96.1380,96138001.07,0.0000,0.00,5179.13,5179129856.00,5179.13,5179129856.00,0.0000,0.00,2024-06-16 10:45:07,2751.87,19200.7,19200655.4,0.00,Close,94.57,
719,1,5,,CCCV Chg,02:01:59,05:56:16,1.7591,58.4247,101.6550,101655005.87,101.6550,101655005.87,0.0000,0.00,5484.97,5484971076.27,5484.97,5484971076.27,0.0000,0.00,2024-06-16 10:51:44,102.7743,54.4,54375.0,0.00,Close,100.00,