Folder: Battery-Anomaly (part 2)

File: ZIPBATT5107240003.csv
DataPoint,Cycle Index,Step Index,Step started to end the identification ,Step Type,Time,Total Time,Current(A),Voltage(V),Capacity(Ah),Spec. Cap.(mAh/g),Chg. Cap.(Ah),Chg. Spec. Cap.(mAh/g),DChg. Cap.(Ah),DChg. Spec. Cap.(mAh/g),Energy(Wh),Spec. Energy(mWh/g),Chg. Energy(Wh),Chg. Spec. Energy(mWh/g),DChg. Energy(Wh),DChg. Spec. Energy(mWh/g),Date,Power(W),dQ/dV(mAh/V),dQm/dV(mAh/V.g),Contact resistance(mÎ©),Module start-stop switch,SOC/DOD(%),LgD
1,1,1,0,CCCV Chg,00:00:00,00:00:00,50.0155,52.9729,0.0000,0.00,0.0000,0.00,0.0000,0.00,0.0000,0.00,0.0000,0.00,0.0000,0.00,2024-07-02 09:13:27,2649.46,0.0,0.0,0.00,Close,0.00,
18,1,1,,CCCV Chg,00:08:30,00:08:30,50.0003,54.2019,7.0833,7083310.22,7.0833,7083310.22,0.0000,0.00,383.2552,383255165.16,383.2552,383255165.16,0.0000,0.00,2024-07-02 09:21:57,2710.11,277776.6,277776592.6,0.00,Close,9.02,
35,1,1,,CCCV Chg,00:17:00,00:17:00,50.0009,54.2183,14.1666,14166606.22,14.1666,14166606.22,0.0000,0.00,767.2618,767261809.78,767.2618,767261809.78,0.0000,0.00,2024-07-02 09:30:27,2710.97,198412.2,198412190.5,0.00,Close,18.04,
52,1,1,,CCCV Chg,00:25:30,00:25:30,50.0016,54.2447,21.2499,21249922.84,21.2499,21249922.84,0.0000,0.00,1151.38,1151381504.00,1151.38,1151381504.00,0.0000,0.00,2024-07-02 09:38:57,2712.32,119047.7,119047720.6,0.00,Close,27.07,
69,1,1,,CCCV Chg,00:34:00,00:34:00,50.0028,54.2997,28.3332,28333195.38,28.3332,28333195.38,0.0000,0.00,1535.77,1535768075.38,1535.77,1535768075.38,0.0000,0.00,2024-07-02 09:47:27,2715.14,66137.4,66137396.8,0.00,Close,36.09,
86,1,1,,CCCV Chg,00:42:30,00:42:30,49.9985,54.4069,35.4165,35416453.69,35.4165,35416453.69,0.0000,0.00,1920.74,1920736369.78,1920.74,1920736369.78,0.0000,0.00,2024-07-02 09:55:57,2720.26,42955.2,42955216.5,0.00,Close,45.11,
103,1,1,,CCCV Chg,00:51:00,00:51:00,50.0048,54.5747,42.4997,42499723.38,42.4997,42499723.38,0.0000,0.00,2306.7,2306702085.69,2306.7,2306702085.69,0.0000,0.00,2024-07-02 10:04:27,2729,50812.9,50812878.0,0.00,Close,54.13,
120,1,1,,CCCV Chg,00:59:30,00:59:30,49.9986,54.6804,49.5830,49583012.98,49.5830,49583012.98,0.0000,0.00,2693.69,2693690527.29,2693.69,2693690527.29,0.0000,0.00,2024-07-02 10:12:57,2733.94,85033.8,85033795.9,0.00,Close,63.15,
137,1,1,,CCCV Chg,01:08:00,01:08:00,50.0023,54.7686,56.6663,56666316.80,56.6663,56666316.80,0.0000,0.00,3081.31,3081310116.98,3081.31,3081310116.98,0.0000,0.00,2024-07-02 10:21:27,2738.55,81699.1,81699137.3,0.00,Close,72.18,
154,1,1,,CCCV Chg,01:16:30,01:16:30,50.0003,54.8901,63.7496,63749603.56,63.7496,63749603.56,0.0000,0.00,3469.66,3469658612.62,3469.66,3469658612.62,0.0000,0.00,2024-07-02 10:29:57,2744.52,46815.7,46815720.3,0.00,Close,81.20,
171,1,1,,CCCV Chg,01:25:00,01:25:00,50.0021,55.1073,70.8329,70832867.56,70.8329,70832867.56,0.0000,0.00,3859.11,3859113938.49,3859.11,3859113938.49,0.0000,0.00,2024-07-02 10:38:27,2755.48,20128.8,20128772.9,0.00,Close,90.22,
188,1,1,,CCCV Chg,01:33:30,01:33:30,49.9984,56.5023,77.9161,77916097.42,77.9161,77916097.42,0.0000,0.00,4252.01,4252012817.07,4252.01,4252012817.07,0.0000,0.00,2024-07-02 10:46:57,2825.02,1229.8,1229810.8,0.00,Close,99.24,
205,1,2,,Rest,00:07:00,01:41:12,0.0000,53.9377,0.0000,0.00,0.0000,0.00,0.0000,0.00,0.0000,0.00,0.0000,0.00,0.0000,0.00,2024-07-02 10:54:40,0.0000,0.0,0.0,0.00,Close,0.00,
222,1,3,,CC DChg,00:05:00,01:49:12,-49.9972,52.1775,4.1667,4166664.53,0.0000,0.00,4.1667,4166664.53,217.8283,217828260.98,0.0000,0.00,217.8283,217828260.98,2024-07-02 11:02:40,-2608.73,-297618.0,-297618031.7,0.00,Close,4.02,
239,1,3,,CC DChg,00:13:30,01:57:42,-50.0027,52.1662,11.2500,11249995.38,0.0000,0.00,11.2500,11249995.38,587.4052,587405175.47,0.0000,0.00,587.4052,587405175.47,2024-07-02 11:11:10,-2608.45,-231482.1,-231482074.1,0.00,Close,10.86,
256,1,3,,CC DChg,00:22:00,02:06:12,-50.0009,52.1190,18.3333,18333330.49,0.0000,0.00,18.3333,18333330.49,956.7668,956766799.64,0.0000,0.00,956.7668,956766799.64,2024-07-02 11:19:40,-2605.99,-71838.9,-71838896.6,0.00,Close,17.70,
273,1,3,,CC DChg,00:30:30,02:14:42,-50.0021,52.0386,25.4167,25416661.33,0.0000,0.00,25.4167,25416661.33,1325.7,1325699982.22,0.0000,0.00,1325.7,1325699982.22,2024-07-02 11:28:10,-2602.04,-74405.1,-74405079.4,0.00,Close,24.53,
290,1,3,,CC DChg,00:39:00,02:23:12,-49.9989,51.8495,32.5000,32499987.91,0.0000,0.00,32.5000,32499987.91,1693.73,1693726583.47,0.0000,0.00,1693.73,1693726583.47,2024-07-02 11:36:40,-2592.42,-27412.0,-27412023.4,0.00,Close,31.37,
307,1,3,,CC DChg,00:47:30,02:31:42,-50.0009,51.6747,39.5833,39583314.49,0.0000,0.00,39.5833,39583314.49,2060.27,2060265062.40,0.0000,0.00,2060.27,2060265062.40,2024-07-02 11:45:10,-2583.78,-78615.1,-78615077.6,0.00,Close,38.21,
324,1,3,,CC DChg,00:56:00,02:40:12,-50.0001,51.5854,46.6666,46666641.07,0.0000,0.00,46.6666,46666641.07,2425.97,2425971416.18,0.0000,0.00,2425.97,2425971416.18,2024-07-02 11:53:40,-2579.27,-70620.8,-70620806.0,0.00,Close,45.05,
341,1,3,,CC DChg,01:04:30,02:48:42,-49.9997,51.4872,53.7500,53749976.18,0.0000,0.00,53.7500,53749976.18,2791.02,2791024048.36,0.0000,0.00,2791.02,2791024048.36,2024-07-02 12:02:10,-2574.35,-77161.3,-77161349.8,0.00,Close,51.88,
358,1,3,,CC DChg,01:13:00,02:57:12,-49.9960,51.3688,60.8333,60833302.76,0.0000,0.00,60.8333,60833302.76,3155.32,3155315916.80,0.0000,0.00,3155.32,3155315916.80,2024-07-02 12:10:40,-2568.24,-42955.2,-42955216.5,0.00,Close,58.72,
375,1,3,,CC DChg,01:21:30,03:05:42,-49.9998,51.2177,67.9166,67916629.33,0.0000,0.00,67.9166,67916629.33,3518.69,3518688642.84,0.0000,0.00,3518.69,3518688642.84,2024-07-02 12:19:10,-2560.87,-37202.8,-37202793.7,0.00,Close,65.56,
392,1,3,,CC DChg,01:30:00,03:14:12,-50.0023,50.9684,75.0000,74999955.91,0.0000,0.00,75.0000,74999955.91,3880.64,3880639601.78,0.0000,0.00,3880.64,3880639601.78,2024-07-02 12:27:40,-2548.54,-30413.5,-30413547.4,0.00,Close,72.39,
409,1,3,,CC DChg,01:38:30,03:22:42,-49.9994,50.6235,82.0833,82083259.73,0.0000,0.00,82.0833,82083259.73,4240.53,4240525448.53,0.0000,0.00,4240.53,4240525448.53,2024-07-02 12:36:10,-2531.14,-16533.9,-16533897.7,0.00,Close,79.23,
426,1,3,,CC DChg,01:47:00,03:31:12,-49.9942,50.0831,89.1666,89166597.69,0.0000,0.00,89.1666,89166597.69,4597.24,4597240445.16,0.0000,0.00,4597.24,4597240445.16,2024-07-02 12:44:40,-2503.86,-18037.7,-18037718.1,0.00,Close,86.07,
443,1,3,,CC DChg,01:55:30,03:39:42,-49.9995,49.6880,96.2499,96249924.27,0.0000,0.00,96.2499,96249924.27,4950.81,4950808621.51,0.0000,0.00,4950.81,4950808621.51,2024-07-02 12:53:10,-2484.37,-9827.0,-9827018.9,0.00,Close,92.91,
460,1,3,,CC DChg,02:04:00,03:48:12,-50.0025,44.5178,103.3333,103333250.84,0.0000,0.00,103.3333,103333250.84,5290.58,5290577828.98,0.0000,0.00,5290.58,5290577828.98,2024-07-02 13:01:40,-2226,-600.4,-600399.1,0.00,Close,99.74,
477,1,4,,Rest,00:07:30,03:56:02,0.0000,45.7167,0.0000,0.00,0.0000,0.00,0.0000,0.00,0.0000,0.00,0.0000,0.00,0.0000,0.00,2024-07-02 13:09:29,0.0000,0.0,0.0,0.00,Close,0.00,
494,1,5,,CCCV Chg,00:05:30,04:04:02,49.9981,51.5881,4.5833,4583276.80,4.5833,4583276.80,0.0000,0.00,227.9101,227910064.36,227.9101,227910064.36,0.0000,0.00,2024-07-02 13:17:29,2579.31,1755.1,1755104.0,0.00,Close,4.41,
511,1,5,,CCCV Chg,00:14:00,04:12:32,49.9987,52.6938,11.6665,11666528.71,11.6665,11666528.71,0.0000,0.00,599.3723,599372322.13,599.3723,599372322.13,0.0000,0.00,2024-07-02 13:25:59,2634.62,23277.3,23277288.6,0.00,Close,11.21,
528,1,5,,CCCV Chg,00:22:30,04:21:02,49.9971,53.1859,18.7498,18749782.76,18.7498,18749782.76,0.0000,0.00,974.1148,974114816.00,974.1148,974114816.00,0.0000,0.00,2024-07-02 13:34:29,2659.14,11510.0,11509981.6,0.00,Close,18.02,
545,1,5,,CCCV Chg,00:31:00,04:29:32,50.0079,53.6962,25.8330,25833025.42,25.8330,25833025.42,0.0000,0.00,1352.76,1352757156.98,1352.76,1352757156.98,0.0000,0.00,2024-07-02 13:42:59,2685.23,17506.7,17506719.0,0.00,Close,24.83,
562,1,5,,CCCV Chg,00:39:30,04:38:02,49.9991,53.9515,32.9163,32916278.04,32.9163,32916278.04,0.0000,0.00,1734.13,1734132986.31,1734.13,1734132986.31,0.0000,0.00,2024-07-02 13:51:29,2697.53,53418.7,53418666.7,0.00,Close,31.64,
579,1,5,,CCCV Chg,00:48:00,04:46:32,50.0031,54.0275,39.9995,39999527.82,39.9995,39999527.82,0.0000,0.00,2116.58,2116583059.91,2116.58,2116583059.91,0.0000,0.00,2024-07-02 13:59:59,2701.54,71837.9,71837915.7,0.00,Close,38.45,
596,1,5,,CCCV Chg,00:56:30,04:55:02,49.9986,54.0948,47.0828,47082777.60,47.0828,47082777.60,0.0000,0.00,2499.49,2499491885.51,2499.49,2499491885.51,0.0000,0.00,2024-07-02 14:08:29,2704.66,86803.6,86803555.6,0.00,Close,45.26,
613,1,5,,CCCV Chg,01:05:00,05:03:32,49.9883,54.1795,54.1660,54166033.07,54.1660,54166033.07,0.0000,0.00,2882.94,2882940836.98,2882.94,2882940836.98,0.0000,0.00,2024-07-02 14:16:59,2708.34,57078.3,57078258.8,0.00,Close,52.07,
630,1,5,,CCCV Chg,01:13:30,05:12:02,49.9980,54.2941,61.2493,61249268.62,61.2493,61249268.62,0.0000,0.00,3267.08,3267078826.67,3267.08,3267078826.67,0.0000,0.00,2024-07-02 14:25:29,2714.59,57869.4,57869432.1,0.00,Close,58.87,
647,1,5,,CCCV Chg,01:22:00,05:20:32,50.0031,54.4876,68.3325,68332526.93,68.3325,68332526.93,0.0000,0.00,3652.28,3652276861.16,3652.28,3652276861.16,0.0000,0.00,2024-07-02 14:33:59,2724.55,35013.9,35013916.0,0.00,Close,65.68,
664,1,5,,CCCV Chg,01:30:30,05:29:02,50.0002,54.5881,75.4158,75415768.18,75.4158,75415768.18,0.0000,0.00,4038.67,4038669471.29,4038.67,4038669471.29,0.0000,0.00,2024-07-02 14:42:29,2729.42,260416.0,260416000.0,0.00,Close,72.49,
681,1,5,,CCCV Chg,01:39:00,05:37:32,50.0005,54.6519,82.4990,82499020.80,82.4990,82499020.80,0.0000,0.00,4425.56,4425558334.58,4425.56,4425558334.58,0.0000,0.00,2024-07-02 14:50:59,2732.62,126262.3,126262303.0,0.00,Close,79.30,
698,1,5,,CCCV Chg,01:47:30,05:46:02,50.0003,54.7383,89.5823,89582256.36,89.5823,89582256.36,0.0000,0.00,4812.96,4812961655.47,4812.96,4812961655.47,0.0000,0.00,2024-07-02 14:59:29,2736.93,70618.4,70618395.5,0.00,Close,86.11,
715,1,5,,CCCV Chg,01:56:00,05:54:32,50.0024,54.8864,96.6655,96665508.98,96.6655,96665508.98,0.0000,0.00,5201.14,5201144490.67,5201.14,5201144490.67,0.0000,0.00,2024-07-02 15:07:59,2744.45,33332.3,33332337.8,0.00,Close,92.92,
732,1,5,,CCCV Chg,02:04:30,06:03:02,49.9997,56.4848,103.7488,103748767.29,103.7488,103748767.29,0.0000,0.00,5592.31,5592311398.40,5592.31,5592311398.40,0.0000,0.00,2024-07-02 15:16:29,2824.22,818.9,818918.2,0.00,Close,99.73,
733,1,5,,CCCV Chg,02:04:50,06:03:22,-0.0208,59.2845,104.0335,104033541.69,104.0335,104033541.69,0.0000,0.00,5608.49,5608489688.18,5608.49,5608489688.18,0.0000,0.00,2024-07-02 15:16:49,-1.2343,101.7,101716.0,0.00,Close,100.00,